{"resourceType": "ExplanationOfBenefit", "id": "3a3f1662-ed2d-4574-9d83-ec4da482345c", "contained": [{"resourceType": "ReferralRequest", "id": "1", "status": "completed", "intent": "order", "subject": {"reference": "urn:uuid:ac3de6f1-e236-4200-b9da-f1b7758de992"}, "requester": {"agent": {"identifier": {"system": "http://hl7.org/fhir/sid/us-npi", "value": "99999999"}}}, "recipient": [{"identifier": {"system": "http://hl7.org/fhir/sid/us-npi", "value": "99999999"}}]}, {"resourceType": "Coverage", "id": "coverage", "type": {"text": "Medicare"}}], "identifier": [{"system": "https://bluebutton.cms.gov/resources/variables/clm_id", "value": "31f51830-94d4-42d4-b1e9-fee0fcbe4f23"}, {"system": "https://bluebutton.cms.gov/resources/identifier/claim-group", "value": "99999999999"}], "status": "active", "type": {"coding": [{"system": "https://bluebutton.cms.gov/resources/variables/nch_clm_type_cd", "code": "71", "display": "Local carrier non-durable medical equipment, prosthetics, orthotics, and supplies (DMEPOS) claim"}, {"system": "https://bluebutton.cms.gov/resources/codesystem/eob-type", "code": "CARRIER", "display": "EOB Type"}, {"system": "http://hl7.org/fhir/ex-claimtype", "code": "professional", "display": "Claim Type"}, {"system": "https://bluebutton.cms.gov/resources/variables/nch_near_line_rec_ident_cd", "code": "O", "display": "Part B physician/supplier claim record (processed by local carriers; can include DMEPOS services)"}]}, "patient": {"reference": "urn:uuid:ac3de6f1-e236-4200-b9da-f1b7758de992"}, "billablePeriod": {"start": "2016-05-21T10:07:41-04:00", "end": "2017-05-21T10:07:41-04:00"}, "created": "2016-05-21T10:07:41-04:00", "provider": {"identifier": {"value": "0000016d-3a85-4cca-0000-000000000122"}}, "organization": {"identifier": {"value": "8ad64ecf-c817-3753-bee7-006a8e662e06"}}, "referral": {"reference": "#1"}, "claim": {"reference": "urn:uuid:31f51830-94d4-42d4-b1e9-fee0fcbe4f23"}, "careTeam": [{"sequence": 1, "provider": {"identifier": {"system": "http://hl7.org/fhir/sid/us-npi", "value": "99999999"}}, "role": {"coding": [{"system": "http://hl7.org/fhir/claimcareteamrole", "code": "primary", "display": "Primary Care Practitioner"}]}}], "diagnosis": [{"extension": [{"url": "https://bluebutton.cms.gov/assets/ig/StructureDefinition-bluebutton-inpatient-clm-poa-ind-sw1-extension", "valueCoding": {"system": "https://bluebutton.cms.gov/assets/ig/CodeSystem-clm-poa-ind-sw1", "code": "Y", "display": "Diagnosis present at time of admission"}}], "sequence": 1, "diagnosisReference": {"reference": "urn:uuid:c9423f8b-e65e-4f78-8cf9-6b1a60b8355c"}, "type": [{"coding": [{"system": "https://bluebutton.cms.gov/resources/codesystem/diagnosis-type", "code": "principal"}]}]}], "insurance": {"coverage": {"reference": "#coverage"}}, "item": [{"sequence": 1, "category": {"coding": [{"system": "https://bluebutton.cms.gov/resources/variables/line_cms_type_srvc_cd", "code": "1", "display": "Medical care"}]}, "servicedPeriod": {"start": "2016-05-21T07:22:41-04:00", "end": "2016-05-21T10:07:41-04:00"}, "locationCodeableConcept": {"coding": [{"system": "https://bluebutton.cms.gov/resources/variables/line_place_of_srvc_cd", "code": "23", "display": "Emergency Room"}]}, "encounter": [{"reference": "urn:uuid:d6546944-c71d-4f5c-9f35-f401b1f4c24a"}]}, {"sequence": 2, "diagnosisLinkId": [1], "category": {"coding": [{"system": "https://bluebutton.cms.gov/resources/variables/line_cms_type_srvc_cd", "code": "1", "display": "Medical care"}]}, "servicedPeriod": {"start": "2016-05-21T07:22:41-04:00", "end": "2016-05-21T10:07:41-04:00"}, "locationCodeableConcept": {"coding": [{"system": "https://bluebutton.cms.gov/resources/variables/line_place_of_srvc_cd", "code": "23", "display": "Emergency Room"}]}}, {"sequence": 3, "category": {"coding": [{"system": "https://bluebutton.cms.gov/resources/variables/line_cms_type_srvc_cd", "code": "1", "display": "Medical care"}]}, "service": {"coding": [{"system": "http://snomed.info/sct", "version": "v1", "code": "168594001"}]}, "servicedPeriod": {"start": "2016-05-21T07:22:41-04:00", "end": "2016-05-21T10:07:41-04:00"}, "locationCodeableConcept": {"coding": [{"system": "https://bluebutton.cms.gov/resources/variables/line_place_of_srvc_cd", "code": "23", "display": "Emergency Room"}]}, "net": {"value": 516.65, "system": "urn:iso:std:iso:4217", "code": "USD"}, "adjudication": [{"category": {"coding": [{"system": "https://bluebutton.cms.gov/resources/codesystem/adjudication", "code": "https://bluebutton.cms.gov/resources/variables/line_coinsrnc_amt", "display": "Line Beneficiary Coinsurance Amount"}]}, "amount": {"value": 103.33, "system": "urn:iso:std:iso:4217", "code": "USD"}}, {"category": {"coding": [{"system": "https://bluebutton.cms.gov/resources/codesystem/adjudication", "code": "https://bluebutton.cms.gov/resources/variables/line_prvdr_pmt_amt", "display": "Line Provider Payment Amount"}]}, "amount": {"value": 413.32, "system": "urn:iso:std:iso:4217", "code": "USD"}}, {"category": {"coding": [{"system": "https://bluebutton.cms.gov/resources/codesystem/adjudication", "code": "https://bluebutton.cms.gov/resources/variables/line_sbmtd_chrg_amt", "display": "Line Submitted Charge Amount"}]}, "amount": {"value": 516.65, "system": "urn:iso:std:iso:4217", "code": "USD"}}, {"category": {"coding": [{"system": "https://bluebutton.cms.gov/resources/codesystem/adjudication", "code": "https://bluebutton.cms.gov/resources/variables/line_alowd_chrg_amt", "display": "Line Allowed Charge Amount"}]}, "amount": {"value": 516.65, "system": "urn:iso:std:iso:4217", "code": "USD"}}, {"category": {"coding": [{"system": "https://bluebutton.cms.gov/resources/codesystem/adjudication", "code": "https://bluebutton.cms.gov/resources/variables/line_bene_ptb_ddctbl_amt", "display": "Line Beneficiary Part B Deductible Amount"}]}, "amount": {"value": 0, "system": "urn:iso:std:iso:4217", "code": "USD"}}, {"category": {"coding": [{"system": "https://bluebutton.cms.gov/resources/codesystem/adjudication", "code": "https://bluebutton.cms.gov/resources/variables/line_prcsg_ind_cd", "display": "Line Processing Indicator Code"}]}, "reason": {"coding": [{"system": "https://bluebutton.cms.gov/resources/variables/line_prcsg_ind_cd", "code": "A", "display": "Allowed"}]}}]}, {"sequence": 4, "category": {"coding": [{"system": "https://bluebutton.cms.gov/resources/variables/line_cms_type_srvc_cd", "code": "1", "display": "Medical care"}]}, "service": {"coding": [{"system": "http://snomed.info/sct", "version": "v1", "code": "305428000"}]}, "servicedPeriod": {"start": "2016-05-21T07:22:41-04:00", "end": "2016-05-21T10:07:41-04:00"}, "locationCodeableConcept": {"coding": [{"system": "https://bluebutton.cms.gov/resources/variables/line_place_of_srvc_cd", "code": "23", "display": "Emergency Room"}]}, "net": {"value": 516.65, "system": "urn:iso:std:iso:4217", "code": "USD"}, "adjudication": [{"category": {"coding": [{"system": "https://bluebutton.cms.gov/resources/codesystem/adjudication", "code": "https://bluebutton.cms.gov/resources/variables/line_coinsrnc_amt", "display": "Line Beneficiary Coinsurance Amount"}]}, "amount": {"value": 103.33, "system": "urn:iso:std:iso:4217", "code": "USD"}}, {"category": {"coding": [{"system": "https://bluebutton.cms.gov/resources/codesystem/adjudication", "code": "https://bluebutton.cms.gov/resources/variables/line_prvdr_pmt_amt", "display": "Line Provider Payment Amount"}]}, "amount": {"value": 413.32, "system": "urn:iso:std:iso:4217", "code": "USD"}}, {"category": {"coding": [{"system": "https://bluebutton.cms.gov/resources/codesystem/adjudication", "code": "https://bluebutton.cms.gov/resources/variables/line_sbmtd_chrg_amt", "display": "Line Submitted Charge Amount"}]}, "amount": {"value": 516.65, "system": "urn:iso:std:iso:4217", "code": "USD"}}, {"category": {"coding": [{"system": "https://bluebutton.cms.gov/resources/codesystem/adjudication", "code": "https://bluebutton.cms.gov/resources/variables/line_alowd_chrg_amt", "display": "Line Allowed Charge Amount"}]}, "amount": {"value": 516.65, "system": "urn:iso:std:iso:4217", "code": "USD"}}, {"category": {"coding": [{"system": "https://bluebutton.cms.gov/resources/codesystem/adjudication", "code": "https://bluebutton.cms.gov/resources/variables/line_bene_ptb_ddctbl_amt", "display": "Line Beneficiary Part B Deductible Amount"}]}, "amount": {"value": 0, "system": "urn:iso:std:iso:4217", "code": "USD"}}, {"category": {"coding": [{"system": "https://bluebutton.cms.gov/resources/codesystem/adjudication", "code": "https://bluebutton.cms.gov/resources/variables/line_prcsg_ind_cd", "display": "Line Processing Indicator Code"}]}, "reason": {"coding": [{"system": "https://bluebutton.cms.gov/resources/variables/line_prcsg_ind_cd", "code": "A", "display": "Allowed"}]}}]}, {"sequence": 5, "category": {"coding": [{"system": "https://bluebutton.cms.gov/resources/variables/line_cms_type_srvc_cd", "code": "1", "display": "Medical care"}]}, "service": {"coding": [{"system": "http://snomed.info/sct", "version": "v1", "code": "312681000"}]}, "servicedPeriod": {"start": "2016-05-21T07:22:41-04:00", "end": "2016-05-21T10:07:41-04:00"}, "locationCodeableConcept": {"coding": [{"system": "https://bluebutton.cms.gov/resources/variables/line_place_of_srvc_cd", "code": "23", "display": "Emergency Room"}]}, "net": {"value": 11911.5, "system": "urn:iso:std:iso:4217", "code": "USD"}, "adjudication": [{"category": {"coding": [{"system": "https://bluebutton.cms.gov/resources/codesystem/adjudication", "code": "https://bluebutton.cms.gov/resources/variables/line_coinsrnc_amt", "display": "Line Beneficiary Coinsurance Amount"}]}, "amount": {"value": 2382.3, "system": "urn:iso:std:iso:4217", "code": "USD"}}, {"category": {"coding": [{"system": "https://bluebutton.cms.gov/resources/codesystem/adjudication", "code": "https://bluebutton.cms.gov/resources/variables/line_prvdr_pmt_amt", "display": "Line Provider Payment Amount"}]}, "amount": {"value": 9529.2, "system": "urn:iso:std:iso:4217", "code": "USD"}}, {"category": {"coding": [{"system": "https://bluebutton.cms.gov/resources/codesystem/adjudication", "code": "https://bluebutton.cms.gov/resources/variables/line_sbmtd_chrg_amt", "display": "Line Submitted Charge Amount"}]}, "amount": {"value": 11911.5, "system": "urn:iso:std:iso:4217", "code": "USD"}}, {"category": {"coding": [{"system": "https://bluebutton.cms.gov/resources/codesystem/adjudication", "code": "https://bluebutton.cms.gov/resources/variables/line_alowd_chrg_amt", "display": "Line Allowed Charge Amount"}]}, "amount": {"value": 11911.5, "system": "urn:iso:std:iso:4217", "code": "USD"}}, {"category": {"coding": [{"system": "https://bluebutton.cms.gov/resources/codesystem/adjudication", "code": "https://bluebutton.cms.gov/resources/variables/line_bene_ptb_ddctbl_amt", "display": "Line Beneficiary Part B Deductible Amount"}]}, "amount": {"value": 0, "system": "urn:iso:std:iso:4217", "code": "USD"}}, {"category": {"coding": [{"system": "https://bluebutton.cms.gov/resources/codesystem/adjudication", "code": "https://bluebutton.cms.gov/resources/variables/line_prcsg_ind_cd", "display": "Line Processing Indicator Code"}]}, "reason": {"coding": [{"system": "https://bluebutton.cms.gov/resources/variables/line_prcsg_ind_cd", "code": "A", "display": "Allowed"}]}}]}], "totalCost": {"value": 129.16, "system": "urn:iso:std:iso:4217", "code": "USD"}, "payment": {"amount": {"value": 10355.84, "system": "urn:iso:std:iso:4217", "code": "USD"}}}