{"resourceType": "ExplanationOfBenefit", "id": "6900f9f1-9243-44bb-89dd-b6c29262661d", "contained": [{"resourceType": "ReferralRequest", "id": "1", "status": "completed", "intent": "order", "subject": {"reference": "urn:uuid:ac3de6f1-e236-4200-b9da-f1b7758de992"}, "requester": {"agent": {"identifier": {"system": "http://hl7.org/fhir/sid/us-npi", "value": "99999999"}}}, "recipient": [{"identifier": {"system": "http://hl7.org/fhir/sid/us-npi", "value": "99999999"}}]}, {"resourceType": "Coverage", "id": "coverage", "type": {"text": "Humana"}}], "identifier": [{"system": "https://bluebutton.cms.gov/resources/variables/clm_id", "value": "fea35dc5-7804-4f84-9401-d3682d9efb56"}, {"system": "https://bluebutton.cms.gov/resources/identifier/claim-group", "value": "99999999999"}], "status": "active", "type": {"coding": [{"system": "https://bluebutton.cms.gov/resources/variables/nch_clm_type_cd", "code": "71", "display": "Local carrier non-durable medical equipment, prosthetics, orthotics, and supplies (DMEPOS) claim"}, {"system": "https://bluebutton.cms.gov/resources/codesystem/eob-type", "code": "CARRIER", "display": "EOB Type"}, {"system": "http://hl7.org/fhir/ex-claimtype", "code": "professional", "display": "Claim Type"}, {"system": "https://bluebutton.cms.gov/resources/variables/nch_near_line_rec_ident_cd", "code": "O", "display": "Part B physician/supplier claim record (processed by local carriers; can include DMEPOS services)"}]}, "patient": {"reference": "urn:uuid:ac3de6f1-e236-4200-b9da-f1b7758de992"}, "billablePeriod": {"start": "1965-11-15T08:07:41-05:00", "end": "1966-11-15T08:07:41-05:00"}, "created": "1965-11-15T08:07:41-05:00", "provider": {"identifier": {"value": "0000016d-3a85-4cca-0000-000000000122"}}, "organization": {"identifier": {"value": "8ad64ecf-c817-3753-bee7-006a8e662e06"}}, "referral": {"reference": "#1"}, "claim": {"reference": "urn:uuid:fea35dc5-7804-4f84-9401-d3682d9efb56"}, "careTeam": [{"sequence": 1, "provider": {"identifier": {"system": "http://hl7.org/fhir/sid/us-npi", "value": "99999999"}}, "role": {"coding": [{"system": "http://hl7.org/fhir/claimcareteamrole", "code": "primary", "display": "Primary Care Practitioner"}]}}], "diagnosis": [{"extension": [{"url": "https://bluebutton.cms.gov/assets/ig/StructureDefinition-bluebutton-inpatient-clm-poa-ind-sw1-extension", "valueCoding": {"system": "https://bluebutton.cms.gov/assets/ig/CodeSystem-clm-poa-ind-sw1", "code": "Y", "display": "Diagnosis present at time of admission"}}], "sequence": 1, "diagnosisReference": {"reference": "urn:uuid:566d4250-83ff-44fd-81e9-8ed99085f046"}, "type": [{"coding": [{"system": "https://bluebutton.cms.gov/resources/codesystem/diagnosis-type", "code": "principal"}]}]}, {"extension": [{"url": "https://bluebutton.cms.gov/assets/ig/StructureDefinition-bluebutton-inpatient-clm-poa-ind-sw1-extension", "valueCoding": {"system": "https://bluebutton.cms.gov/assets/ig/CodeSystem-clm-poa-ind-sw1", "code": "Y", "display": "Diagnosis present at time of admission"}}], "sequence": 2, "diagnosisReference": {"reference": "urn:uuid:4d50aaaa-0f7c-4139-9554-482e455d08fa"}, "type": [{"coding": [{"system": "https://bluebutton.cms.gov/resources/codesystem/diagnosis-type", "code": "principal"}]}]}], "insurance": {"coverage": {"reference": "#coverage"}}, "item": [{"sequence": 1, "category": {"coding": [{"system": "https://bluebutton.cms.gov/resources/variables/line_cms_type_srvc_cd", "code": "1", "display": "Medical care"}]}, "servicedPeriod": {"start": "1965-11-15T06:22:41-05:00", "end": "1965-11-15T08:07:41-05:00"}, "locationCodeableConcept": {"coding": [{"system": "https://bluebutton.cms.gov/resources/variables/line_place_of_srvc_cd", "code": "23", "display": "Emergency Room"}]}, "encounter": [{"reference": "urn:uuid:74816842-a979-45a3-b153-d145e253fe4f"}]}, {"sequence": 2, "diagnosisLinkId": [1], "category": {"coding": [{"system": "https://bluebutton.cms.gov/resources/variables/line_cms_type_srvc_cd", "code": "1", "display": "Medical care"}]}, "servicedPeriod": {"start": "1965-11-15T06:22:41-05:00", "end": "1965-11-15T08:07:41-05:00"}, "locationCodeableConcept": {"coding": [{"system": "https://bluebutton.cms.gov/resources/variables/line_place_of_srvc_cd", "code": "23", "display": "Emergency Room"}]}}, {"sequence": 3, "diagnosisLinkId": [2], "category": {"coding": [{"system": "https://bluebutton.cms.gov/resources/variables/line_cms_type_srvc_cd", "code": "1", "display": "Medical care"}]}, "servicedPeriod": {"start": "1965-11-15T06:22:41-05:00", "end": "1965-11-15T08:07:41-05:00"}, "locationCodeableConcept": {"coding": [{"system": "https://bluebutton.cms.gov/resources/variables/line_place_of_srvc_cd", "code": "23", "display": "Emergency Room"}]}}], "totalCost": {"value": 129.16, "system": "urn:iso:std:iso:4217", "code": "USD"}, "payment": {"amount": {"value": 0.0, "system": "urn:iso:std:iso:4217", "code": "USD"}}}